{
  "resourceType": "Bundle",
  "id": "BundleIniciarEjemplo",
  "meta": {
    "profile": [
      "https://interoperabilidad.minsal.cl/fhir/ig/tei/StructureDefinition/BundleIniciarLE"
    ]
  },
  "type": "message",
  "timestamp": "2024-01-17T16:00:00-03:00",
  "entry": [
    {
      "fullUrl": "http://interoperabilidad.minsal.cl/fhir/ig/tei/MessageHeader/MesssageHeaderIniciar",
      "resource": {
        "resourceType": "MessageHeader",
        "id": "MesssageHeaderIniciar",
        "meta": {
          "lastUpdated": "2024-01-17T16:00:00-03:00",
          "profile": [
            "https://interoperabilidad.minsal.cl/fhir/ig/tei/StructureDefinition/MessageHeaderLE"
          ]
        },
        "text": {
          "status": "generated",
          "div": "\u003Cdiv xmlns=\"http://www.w3.org/1999/xhtml\"\u003E\u003Ca name=\"MessageHeader_MesssageHeaderIniciar\"\u003E \u003C/a\u003E\u003Cp class=\"res-header-id\"\u003E\u003Cb\u003EGenerated Narrative: MessageHeader MesssageHeaderIniciar\u003C/b\u003E\u003C/p\u003E\u003Ca name=\"MesssageHeaderIniciar\"\u003E \u003C/a\u003E\u003Ca name=\"hcMesssageHeaderIniciar\"\u003E \u003C/a\u003E\u003Ca name=\"MesssageHeaderIniciar-es-CL\"\u003E \u003C/a\u003E\u003Cdiv style=\"display: inline-block; background-color: #d9e0e7; padding: 6px; margin: 4px; border: 1px solid #8da1b4; border-radius: 5px; line-height: 60%\"\u003E\u003Cp style=\"margin-bottom: 0px\"\u003ELast updated: 2024-01-17 16:00:00-0300\u003C/p\u003E\u003Cp style=\"margin-bottom: 0px\"\u003EProfile: \u003Ca href=\"StructureDefinition-MessageHeaderLE.html\"\u003EMessageHeader LE\u003C/a\u003E\u003C/p\u003E\u003C/div\u003E\u003Cp\u003E\u003Cb\u003Eevent\u003C/b\u003E: \u003Ca href=\"CodeSystem-CSTipoEventoLE.html#CSTipoEventoLE-iniciar\"\u003ETipo de Evento iniciar\u003C/a\u003E: Iniciar\u003C/p\u003E\u003Cp\u003E\u003Cb\u003Eauthor\u003C/b\u003E: \u003Ca href=\"PractitionerRole-PractitionerRoleIniciador.html\"\u003EPractitionerRole Iniciador\u003C/a\u003E\u003C/p\u003E\u003Ch3\u003ESources\u003C/h3\u003E\u003Ctable class=\"grid\"\u003E\u003Ctr\u003E\u003Ctd style=\"display: none\"\u003E-\u003C/td\u003E\u003Ctd\u003E\u003Cb\u003ESoftware\u003C/b\u003E\u003C/td\u003E\u003Ctd\u003E\u003Cb\u003EEndpoint\u003C/b\u003E\u003C/td\u003E\u003C/tr\u003E\u003Ctr\u003E\u003Ctd style=\"display: none\"\u003E*\u003C/td\u003E\u003Ctd\u003ESISMaule\u003C/td\u003E\u003Ctd\u003Ellp:10.11.12.13:5432\u003C/td\u003E\u003C/tr\u003E\u003C/table\u003E\u003Cp\u003E\u003Cb\u003Efocus\u003C/b\u003E: \u003Ca href=\"Bundle-BundleIniciarEjemplo.html#ServiceRequest_SolicitudInterconsultaEjemplo\"\u003EBundle: type = message; timestamp = 2024-01-17 16:00:00-0300\u003C/a\u003E\u003C/p\u003E\u003C/div\u003E"
        },
        "eventCoding": {
          "system": "https://interoperabilidad.minsal.cl/fhir/ig/tei/CodeSystem/CSTipoEventoLE",
          "code": "iniciar"
        },
        "author": {
          "reference": "PractitionerRole/PractitionerRoleIniciador"
        },
        "source": {
          "software": "SISMaule",
          "endpoint": "llp:10.11.12.13:5432"
        },
        "focus": [
          {
            "reference": "ServiceRequest/SolicitudInterconsultaEjemplo"
          }
        ]
      }
    },
    {
      "fullUrl": "http://interoperabilidad.minsal.cl/fhir/ig/tei/ServiceRequest/SolicitudInterconsultaEjemplo",
      "resource": {
        "resourceType": "ServiceRequest",
        "id": "SolicitudInterconsultaEjemplo",
        "meta": {
          "profile": [
            "https://interoperabilidad.minsal.cl/fhir/ig/tei/StructureDefinition/ServiceRequestLE"
          ]
        },
        "text": {
          "status": "extensions",
          "div": "\u003Cdiv xmlns=\"http://www.w3.org/1999/xhtml\"\u003E\u003Ca name=\"ServiceRequest_SolicitudInterconsultaEjemplo\"\u003E \u003C/a\u003E\u003Cp class=\"res-header-id\"\u003E\u003Cb\u003EGenerated Narrative: ServiceRequest SolicitudInterconsultaEjemplo\u003C/b\u003E\u003C/p\u003E\u003Ca name=\"SolicitudInterconsultaEjemplo\"\u003E \u003C/a\u003E\u003Ca name=\"hcSolicitudInterconsultaEjemplo\"\u003E \u003C/a\u003E\u003Ca name=\"SolicitudInterconsultaEjemplo-es-CL\"\u003E \u003C/a\u003E\u003Cdiv style=\"display: inline-block; background-color: #d9e0e7; padding: 6px; margin: 4px; border: 1px solid #8da1b4; border-radius: 5px; line-height: 60%\"\u003E\u003Cp style=\"margin-bottom: 0px\"/\u003E\u003Cp style=\"margin-bottom: 0px\"\u003EProfile: \u003Ca href=\"StructureDefinition-ServiceRequestLE.html\"\u003EServiceRequest LE\u003C/a\u003E\u003C/p\u003E\u003C/div\u003E\u003Cp\u003E\u003Cb\u003EExtBool Requiere Examen\u003C/b\u003E: true\u003C/p\u003E\u003Cp\u003E\u003Cb\u003EExtBool Resolutividad APS\u003C/b\u003E: true\u003C/p\u003E\u003Cp\u003E\u003Cb\u003EOrigen Interconsulta\u003C/b\u003E: \u003Cspan title=\"Codes:{https://interoperabilidad.minsal.cl/fhir/ig/tei/CodeSystem/CSorigenInterconsulta 1}\"\u003EAPS\u003C/span\u003E\u003C/p\u003E\u003Cp\u003E\u003Cb\u003EEstado Interconsulta Codigo\u003C/b\u003E: \u003Cspan title=\"Codes:{https://interoperabilidad.minsal.cl/fhir/ig/tei/CodeSystem/CSEstadoInterconsulta 1}\"\u003EA la espera de referencia\u003C/span\u003E\u003C/p\u003E\u003Cp\u003E\u003Cb\u003EEspecialidad Médica Destino Código\u003C/b\u003E: \u003Cspan title=\"Codes:{https://interoperabilidad.minsal.cl/fhir/ig/tei/CodeSystem/CSEspecialidadMed 30}\"\u003EMEDICINA INTERNA\u003C/span\u003E\u003C/p\u003E\u003Cp\u003E\u003Cb\u003ESubEspecialidad Médica Destino Código\u003C/b\u003E: \u003Cspan title=\"Codes:{https://interoperabilidad.minsal.cl/fhir/ig/tei/CodeSystem/CSEspecialidadMed 14}\"\u003EENDOCRINOLOGÍA ADULTO\u003C/span\u003E\u003C/p\u003E\u003Cp\u003E\u003Cb\u003Eidentifier\u003C/b\u003E: 123\u003C/p\u003E\u003Cp\u003E\u003Cb\u003Estatus\u003C/b\u003E: Draft\u003C/p\u003E\u003Cp\u003E\u003Cb\u003Eintent\u003C/b\u003E: Order\u003C/p\u003E\u003Cp\u003E\u003Cb\u003Ecategory\u003C/b\u003E: \u003Cspan title=\"Codes:{https://interoperabilidad.minsal.cl/fhir/ig/tei/CodeSystem/CSModalidadAtencionCodigo 1}\"\u003EPresencial\u003C/span\u003E\u003C/p\u003E\u003Cp\u003E\u003Cb\u003Epriority\u003C/b\u003E: Routine\u003C/p\u003E\u003Cp\u003E\u003Cb\u003Ecode\u003C/b\u003E: \u003Cspan title=\"Codes:{http://snomed.info/sct 103696004}\"\u003EInterconsulta para atención presencial\u003C/span\u003E\u003C/p\u003E\u003Cp\u003E\u003Cb\u003Esubject\u003C/b\u003E: \u003Ca href=\"Patient-EjemploPatientLE.html\"\u003EMaría Josefina Gonzalez (official) Male, DoB: 1974-12-25 ( Rol Único Nacional: 90000000-6 (use: official, ))\u003C/a\u003E\u003C/p\u003E\u003Cp\u003E\u003Cb\u003Eencounter\u003C/b\u003E: \u003Ca href=\"Encounter-EncounterIniciarEjemplo.html\"\u003EEncounter: extension = Derivación; identifier = http://example.org/sampleencounter-identifier#123 (use: official, ); status = finished; class = Presencial (Modalidad Atencion Codigo#1); period = 2024-01-17 16:00:00+1000 --&gt; 2024-01-17 16:30:00+1000\u003C/a\u003E\u003C/p\u003E\u003Cp\u003E\u003Cb\u003EauthoredOn\u003C/b\u003E: 2024-12-10 09:00:00+0000\u003C/p\u003E\u003Cp\u003E\u003Cb\u003Erequester\u003C/b\u003E: \u003Ca href=\"PractitionerRole-PractitionerRoleIniciador.html\"\u003EPractitionerRole Iniciador\u003C/a\u003E\u003C/p\u003E\u003Cp\u003E\u003Cb\u003ElocationCode\u003C/b\u003E: \u003Cspan title=\"Codes:{https://interoperabilidad.minsal.cl/fhir/ig/tei/CodeSystem/CSDestinoReferenciaCodigo 1}\"\u003ENivel Secundario\u003C/span\u003E\u003C/p\u003E\u003Cp\u003E\u003Cb\u003EreasonCode\u003C/b\u003E: \u003Cspan title=\"Codes:{https://interoperabilidad.minsal.cl/fhir/ig/tei/CodeSystem/CSDerivadoParaCodigo 1}\"\u003EConfirmación\u003C/span\u003E\u003C/p\u003E\u003Cp\u003E\u003Cb\u003EsupportingInfo\u003C/b\u003E: \u003C/p\u003E\u003Cul\u003E\u003Cli\u003E\u003Ca href=\"Condition-ConditionInicialEjemplo.html\"\u003ECondition Adrenal antibody detected\u003C/a\u003E\u003C/li\u003E\u003Cli\u003E\u003Ca href=\"AllergyIntolerance-AllergyIntoleranceExample.html\"\u003EAllergyIntolerance Cashew nuts\u003C/a\u003E\u003C/li\u003E\u003Cli\u003E\u003Ca href=\"Observation-IndiceConmorbilidadEjemplo.html\"\u003EObservation Estrategia de cuidado integral centrado en las personas\u003C/a\u003E\u003C/li\u003E\u003Cli\u003E\u003Ca href=\"Observation-EjemploObservationCuidador.html\"\u003EObservation Caregiver for person with age-related complaints, chronic diseases or frailty\u003C/a\u003E\u003C/li\u003E\u003Cli\u003E\u003Ca href=\"Observation-EjemploObservationDiscapacidadLE.html\"\u003EObservation Disability status\u003C/a\u003E\u003C/li\u003E\u003Cli\u003E\u003Ca href=\"QuestionnaireResponse-MotivoDerivacionEjemplo.html\"\u003EResponse to Questionnaire '-&gt;Motivo de Derivación' about '-&gt;María Josefina Gonzalez (official) Male, DoB: 1974-12-25 ( Rol Único Nacional: 90000000-6 (use: official, ))'\u003C/a\u003E\u003C/li\u003E\u003Cli\u003E\u003Ca href=\"Bundle-BundleIniciarEjemplo.html#ServiceRequest_SolicitudExamenEjemplo\"\u003EBundle: type = message; timestamp = 2024-01-17 16:00:00-0300\u003C/a\u003E\u003C/li\u003E\u003Cli\u003E\u003Ca href=\"Observation-AnticuerpoAdrenal.html\"\u003EObservation Adrenal Ab [Units/volume] in Serum\u003C/a\u003E\u003C/li\u003E\u003C/ul\u003E\u003C/div\u003E"
        },
        "extension": [
          {
            "url": "https://interoperabilidad.minsal.cl/fhir/ig/tei/StructureDefinition/ExtensionBoolRequiereExamen",
            "valueBoolean": true
          },
          {
            "url": "https://interoperabilidad.minsal.cl/fhir/ig/tei/StructureDefinition/ExtensionBoolResolutividadAPS",
            "valueBoolean": true
          },
          {
            "url": "https://interoperabilidad.minsal.cl/fhir/ig/tei/StructureDefinition/ExtensionOrigenInterconsulta",
            "valueCodeableConcept": {
              "coding": [
                {
                  "system": "https://interoperabilidad.minsal.cl/fhir/ig/tei/CodeSystem/CSorigenInterconsulta",
                  "code": "1",
                  "display": "APS"
                }
              ]
            }
          },
          {
            "url": "https://interoperabilidad.minsal.cl/fhir/ig/tei/StructureDefinition/ExtensionEstadoInterconsultaCodigoLE",
            "valueCodeableConcept": {
              "coding": [
                {
                  "system": "https://interoperabilidad.minsal.cl/fhir/ig/tei/CodeSystem/CSEstadoInterconsulta",
                  "code": "1",
                  "display": "A la espera de referencia"
                }
              ]
            }
          },
          {
            "url": "https://interoperabilidad.minsal.cl/fhir/ig/tei/StructureDefinition/ExtensionEspecialidadMedicaDestinoCodigo",
            "valueCodeableConcept": {
              "coding": [
                {
                  "system": "https://interoperabilidad.minsal.cl/fhir/ig/tei/CodeSystem/CSEspecialidadMed",
                  "code": "30",
                  "display": "MEDICINA INTERNA"
                }
              ]
            }
          },
          {
            "url": "https://interoperabilidad.minsal.cl/fhir/ig/tei/StructureDefinition/ExtensionSubEspecialidadMedicaDestinoCodigo",
            "valueCodeableConcept": {
              "coding": [
                {
                  "system": "https://interoperabilidad.minsal.cl/fhir/ig/tei/CodeSystem/CSEspecialidadMed",
                  "code": "14",
                  "display": "ENDOCRINOLOGÍA ADULTO"
                }
              ]
            }
          }
        ],
        "identifier": [
          {
            "value": "123"
          }
        ],
        "status": "draft",
        "intent": "order",
        "category": [
          {
            "coding": [
              {
                "system": "https://interoperabilidad.minsal.cl/fhir/ig/tei/CodeSystem/CSModalidadAtencionCodigo",
                "code": "1",
                "display": "Presencial"
              }
            ]
          }
        ],
        "priority": "routine",
        "code": {
          "coding": [
            {
              "system": "http://snomed.info/sct",
              "code": "103696004"
            }
          ],
          "text": "Interconsulta para atención presencial"
        },
        "subject": {
          "reference": "Patient/EjemploPatientLE"
        },
        "encounter": {
          "reference": "Encounter/EncounterIniciarEjemplo"
        },
        "authoredOn": "2024-12-10T09:00:00Z",
        "requester": {
          "reference": "PractitionerRole/PractitionerRoleIniciador"
        },
        "locationCode": [
          {
            "coding": [
              {
                "system": "https://interoperabilidad.minsal.cl/fhir/ig/tei/CodeSystem/CSDestinoReferenciaCodigo",
                "code": "1",
                "display": "Nivel Secundario"
              }
            ]
          }
        ],
        "reasonCode": [
          {
            "coding": [
              {
                "system": "https://interoperabilidad.minsal.cl/fhir/ig/tei/CodeSystem/CSDerivadoParaCodigo",
                "code": "1",
                "display": "Confirmación"
              }
            ]
          }
        ],
        "supportingInfo": [
          {
            "reference": "Condition/ConditionInicialEjemplo"
          },
          {
            "reference": "AllergyIntolerance/AllergyIntoleranceExample"
          },
          {
            "reference": "Observation/IndiceConmorbilidadEjemplo"
          },
          {
            "reference": "Observation/EjemploObservationCuidador"
          },
          {
            "reference": "Observation/EjemploObservationDiscapacidadLE"
          },
          {
            "reference": "QuestionnaireResponse/MotivoDerivacionEjemplo"
          },
          {
            "reference": "ServiceRequest/SolicitudExamenEjemplo"
          },
          {
            "reference": "Observation/AnticuerpoAdrenal"
          }
        ]
      }
    },
    {
      "fullUrl": "http://interoperabilidad.minsal.cl/fhir/ig/tei/Encounter/EncounterIniciarEjemplo",
      "resource": {
        "resourceType": "Encounter",
        "id": "EncounterIniciarEjemplo",
        "meta": {
          "profile": [
            "https://interoperabilidad.minsal.cl/fhir/ig/tei/StructureDefinition/EncounterIniciarLE"
          ]
        },
        "text": {
          "status": "extensions",
          "div": "\u003Cdiv xmlns=\"http://www.w3.org/1999/xhtml\"\u003E\u003Ca name=\"Encounter_EncounterIniciarEjemplo\"\u003E \u003C/a\u003E\u003Cp class=\"res-header-id\"\u003E\u003Cb\u003EGenerated Narrative: Encounter EncounterIniciarEjemplo\u003C/b\u003E\u003C/p\u003E\u003Ca name=\"EncounterIniciarEjemplo\"\u003E \u003C/a\u003E\u003Ca name=\"hcEncounterIniciarEjemplo\"\u003E \u003C/a\u003E\u003Ca name=\"EncounterIniciarEjemplo-es-CL\"\u003E \u003C/a\u003E\u003Cdiv style=\"display: inline-block; background-color: #d9e0e7; padding: 6px; margin: 4px; border: 1px solid #8da1b4; border-radius: 5px; line-height: 60%\"\u003E\u003Cp style=\"margin-bottom: 0px\"/\u003E\u003Cp style=\"margin-bottom: 0px\"\u003EProfile: \u003Ca href=\"StructureDefinition-EncounterIniciarLE.html\"\u003EEncounter Iniciar LE\u003C/a\u003E\u003C/p\u003E\u003C/div\u003E\u003Cp\u003E\u003Cb\u003EConsecuencia Atención Codigo\u003C/b\u003E: \u003Cspan title=\"Codes:{https://interoperabilidad.minsal.cl/fhir/ig/tei/CodeSystem/CSConsecuenciaAtencionCodigo 3}\"\u003EDerivación\u003C/span\u003E\u003C/p\u003E\u003Cp\u003E\u003Cb\u003Eidentifier\u003C/b\u003E: \u003Ccode\u003Ehttp://example.org/sampleencounter-identifier\u003C/code\u003E/123 (use: official, )\u003C/p\u003E\u003Cp\u003E\u003Cb\u003Estatus\u003C/b\u003E: Finished\u003C/p\u003E\u003Cp\u003E\u003Cb\u003Eclass\u003C/b\u003E: \u003Ca href=\"CodeSystem-CSModalidadAtencionCodigo.html#CSModalidadAtencionCodigo-1\"\u003EModalidad Atencion Codigo 1\u003C/a\u003E: Presencial\u003C/p\u003E\u003Cp\u003E\u003Cb\u003Esubject\u003C/b\u003E: \u003Ca href=\"Patient-EjemploPatientLE.html\"\u003EMaría Josefina Gonzalez (official) Male, DoB: 1974-12-25 ( Rol Único Nacional: 90000000-6 (use: official, ))\u003C/a\u003E\u003C/p\u003E\u003Ch3\u003EParticipants\u003C/h3\u003E\u003Ctable class=\"grid\"\u003E\u003Ctr\u003E\u003Ctd style=\"display: none\"\u003E-\u003C/td\u003E\u003Ctd\u003E\u003Cb\u003EIndividual\u003C/b\u003E\u003C/td\u003E\u003C/tr\u003E\u003Ctr\u003E\u003Ctd style=\"display: none\"\u003E*\u003C/td\u003E\u003Ctd\u003E\u003Ca href=\"PractitionerRole-PractitionerRoleIniciador.html\"\u003EPractitionerRole Iniciador\u003C/a\u003E\u003C/td\u003E\u003C/tr\u003E\u003C/table\u003E\u003Cp\u003E\u003Cb\u003Eperiod\u003C/b\u003E: 2024-01-17 16:00:00+1000 --&gt; 2024-01-17 16:30:00+1000\u003C/p\u003E\u003Ch3\u003EDiagnoses\u003C/h3\u003E\u003Ctable class=\"grid\"\u003E\u003Ctr\u003E\u003Ctd style=\"display: none\"\u003E-\u003C/td\u003E\u003Ctd\u003E\u003Cb\u003ECondition\u003C/b\u003E\u003C/td\u003E\u003Ctd\u003E\u003Cb\u003ERank\u003C/b\u003E\u003C/td\u003E\u003C/tr\u003E\u003Ctr\u003E\u003Ctd style=\"display: none\"\u003E*\u003C/td\u003E\u003Ctd\u003E\u003Ca href=\"Condition-ConditionInicialEjemplo.html\"\u003ECondition Adrenal antibody detected\u003C/a\u003E\u003C/td\u003E\u003Ctd\u003E1\u003C/td\u003E\u003C/tr\u003E\u003C/table\u003E\u003C/div\u003E"
        },
        "extension": [
          {
            "url": "https://interoperabilidad.minsal.cl/fhir/ig/tei/StructureDefinition/ExtensionConsecuenciaAtencionCodigo",
            "valueCodeableConcept": {
              "coding": [
                {
                  "system": "https://interoperabilidad.minsal.cl/fhir/ig/tei/CodeSystem/CSConsecuenciaAtencionCodigo",
                  "code": "3",
                  "display": "Derivación"
                }
              ]
            }
          }
        ],
        "identifier": [
          {
            "use": "official",
            "system": "http://example.org/sampleencounter-identifier",
            "value": "123"
          }
        ],
        "status": "finished",
        "class": {
          "system": "https://interoperabilidad.minsal.cl/fhir/ig/tei/CodeSystem/CSModalidadAtencionCodigo",
          "code": "1",
          "display": "Presencial"
        },
        "subject": {
          "reference": "Patient/EjemploPatientLE"
        },
        "participant": [
          {
            "individual": {
              "reference": "PractitionerRole/PractitionerRoleIniciador"
            }
          }
        ],
        "period": {
          "start": "2024-01-17T16:00:00+10:00",
          "end": "2024-01-17T16:30:00+10:00"
        },
        "diagnosis": [
          {
            "condition": {
              "reference": "Condition/ConditionInicialEjemplo"
            },
            "rank": 1
          }
        ]
      }
    },
    {
      "fullUrl": "http://interoperabilidad.minsal.cl/fhir/ig/tei/Patient/EjemploPatientLE",
      "resource": {
        "resourceType": "Patient",
        "id": "EjemploPatientLE",
        "meta": {
          "profile": [
            "https://interoperabilidad.minsal.cl/fhir/ig/tei/StructureDefinition/PatientLE"
          ]
        },
        "text": {
          "status": "generated",
          "div": "\u003Cdiv xmlns=\"http://www.w3.org/1999/xhtml\"\u003E\u003Ca name=\"Patient_EjemploPatientLE\"\u003E \u003C/a\u003E\u003Cp class=\"res-header-id\"\u003E\u003Cb\u003EGenerated Narrative: Patient EjemploPatientLE\u003C/b\u003E\u003C/p\u003E\u003Ca name=\"EjemploPatientLE\"\u003E \u003C/a\u003E\u003Ca name=\"hcEjemploPatientLE\"\u003E \u003C/a\u003E\u003Ca name=\"EjemploPatientLE-es-CL\"\u003E \u003C/a\u003E\u003Cdiv style=\"display: inline-block; background-color: #d9e0e7; padding: 6px; margin: 4px; border: 1px solid #8da1b4; border-radius: 5px; line-height: 60%\"\u003E\u003Cp style=\"margin-bottom: 0px\"/\u003E\u003Cp style=\"margin-bottom: 0px\"\u003EProfile: \u003Ca href=\"StructureDefinition-PatientLE.html\"\u003EPatient LE\u003C/a\u003E\u003C/p\u003E\u003C/div\u003E\u003Cp style=\"border: 1px #661aff solid; background-color: #e6e6ff; padding: 10px;\"\u003EMaría Josefina Gonzalez (official) Male, DoB: 1974-12-25 ( Rol Único Nacional: 90000000-6 (use: official, ))\u003C/p\u003E\u003Chr/\u003E\u003Ctable class=\"grid\"\u003E\u003Ctr\u003E\u003Ctd style=\"background-color: #f3f5da\" title=\"Record is active\"\u003EActive:\u003C/td\u003E\u003Ctd\u003Etrue\u003C/td\u003E\u003Ctd style=\"background-color: #f3f5da\" title=\"Known status of Patient\"\u003EDeceased:\u003C/td\u003E\u003Ctd colspan=\"3\"\u003Efalse\u003C/td\u003E\u003C/tr\u003E\u003Ctr\u003E\u003Ctd style=\"background-color: #f3f5da\" title=\"Ways to contact the Patient\"\u003EContact Detail\u003C/td\u003E\u003Ctd colspan=\"3\"\u003E\u003Cul\u003E\u003Cli\u003Eph: (562) 5555 6473(Work)\u003C/li\u003E\u003Cli\u003ECalle Arrabal Conchita Tejeda Nº 24, Esc. 432(home)\u003C/li\u003E\u003C/ul\u003E\u003C/td\u003E\u003C/tr\u003E\u003Ctr\u003E\u003Ctd style=\"background-color: #f3f5da\" title=\"Esta extensión incluye códigos de países\"\u003E\u003Ca href=\"https://hl7chile.cl/fhir/ig/clcore/1.9.2/StructureDefinition-CodigoPaises.html\"\u003ECódigo de Países\u003C/a\u003E\u003C/td\u003E\u003Ctd colspan=\"3\"\u003E\u003Cspan title=\"Codes:{https://hl7chile.cl/fhir/ig/clcore/CodeSystem/CodPais 152}\"\u003EChile\u003C/span\u003E\u003C/td\u003E\u003C/tr\u003E\u003Ctr\u003E\u003Ctd style=\"background-color: #f3f5da\" title=\"Pueblos Originarios Perteneciente\"\u003E\u003Ca href=\"StructureDefinition-PueblosOriginariosPerteneciente.html\"\u003EPueblos Originarios Perteneciente\u003C/a\u003E\u003C/td\u003E\u003Ctd colspan=\"3\"\u003Etrue\u003C/td\u003E\u003C/tr\u003E\u003Ctr\u003E\u003Ctd style=\"background-color: #f3f5da\" title=\"Almacenar si el paciente pertenece a algun pueblo originario\"\u003E\u003Ca href=\"StructureDefinition-PueblosOriginarios.html\"\u003EPueblos Originarios\u003C/a\u003E\u003C/td\u003E\u003Ctd colspan=\"3\"\u003E\u003Cspan title=\"Codes:{https://interoperabilidad.minsal.cl/fhir/ig/tei/CodeSystem/PueblosOriginariosCS 07}\"\u003EDiaguita\u003C/span\u003E\u003C/td\u003E\u003C/tr\u003E\u003Ctr\u003E\u003Ctd style=\"background-color: #f3f5da\" title=\"Identidad De Género\"\u003E\u003Ca href=\"https://hl7chile.cl/fhir/ig/clcore/1.9.2/StructureDefinition-IdentidadDeGenero.html\"\u003EIdentidad De Género\u003C/a\u003E\u003C/td\u003E\u003Ctd colspan=\"3\"\u003E\u003Cspan title=\"Codes:{https://hl7chile.cl/fhir/ig/clcore/CodeSystem/CSIdentidaddeGenero 2}\"\u003EFemenina\u003C/span\u003E\u003C/td\u003E\u003C/tr\u003E\u003Ctr\u003E\u003Ctd style=\"background-color: #f3f5da\" title=\"Pueblos Afrodescendiente\"\u003E\u003Ca href=\"StructureDefinition-PueblosAfrodescendiente.html\"\u003EPueblos Afrodescendiente\u003C/a\u003E\u003C/td\u003E\u003Ctd colspan=\"3\"\u003Efalse\u003C/td\u003E\u003C/tr\u003E\u003Ctr\u003E\u003Ctd style=\"background-color: #f3f5da\" title=\"País de origen del paciente\"\u003E\u003Ca href=\"StructureDefinition-PaisOrigenMPI.html\"\u003EPaís de origen del paciente\u003C/a\u003E\u003C/td\u003E\u003Ctd colspan=\"3\"\u003E\u003Cspan title=\"Codes:{https://hl7chile.cl/fhir/ig/clcore/CodeSystem/CodPais 152}\"\u003EChile\u003C/span\u003E\u003C/td\u003E\u003C/tr\u003E\u003C/table\u003E\u003C/div\u003E"
        },
        "extension": [
          {
            "url": "https://hl7chile.cl/fhir/ig/clcore/StructureDefinition/IdentidadDeGenero",
            "valueCodeableConcept": {
              "coding": [
                {
                  "system": "https://hl7chile.cl/fhir/ig/clcore/CodeSystem/CSIdentidaddeGenero",
                  "code": "2",
                  "display": "Femenina"
                }
              ]
            }
          },
          {
            "url": "https://hl7chile.cl/fhir/ig/clcore/StructureDefinition/CodigoPaises",
            "valueCodeableConcept": {
              "coding": [
                {
                  "system": "https://hl7chile.cl/fhir/ig/clcore/CodeSystem/CodPais",
                  "code": "152",
                  "display": "Chile"
                }
              ]
            }
          },
          {
            "url": "https://interoperabilidad.minsal.cl/fhir/ig/tei/StructureDefinition/PaisOrigenMPI",
            "valueCodeableConcept": {
              "coding": [
                {
                  "system": "https://hl7chile.cl/fhir/ig/clcore/CodeSystem/CodPais",
                  "code": "152",
                  "display": "Chile"
                }
              ]
            }
          },
          {
            "url": "https://interoperabilidad.minsal.cl/fhir/ig/tei/StructureDefinition/PueblosOriginariosPerteneciente",
            "valueBoolean": true
          },
          {
            "url": "https://interoperabilidad.minsal.cl/fhir/ig/tei/StructureDefinition/PueblosAfrodescendiente",
            "valueBoolean": false
          },
          {
            "url": "https://interoperabilidad.minsal.cl/fhir/ig/tei/StructureDefinition/PueblosOriginarios",
            "valueCodeableConcept": {
              "coding": [
                {
                  "system": "https://interoperabilidad.minsal.cl/fhir/ig/tei/CodeSystem/PueblosOriginariosCS",
                  "code": "07",
                  "display": "Diaguita"
                }
              ]
            }
          }
        ],
        "identifier": [
          {
            "use": "official",
            "type": {
              "extension": [
                {
                  "url": "https://hl7chile.cl/fhir/ig/clcore/StructureDefinition/CodigoPaises",
                  "valueCodeableConcept": {
                    "coding": [
                      {
                        "system": "https://hl7chile.cl/fhir/ig/clcore/CodeSystem/CodPais",
                        "code": "152",
                        "display": "Chile"
                      }
                    ]
                  }
                }
              ],
              "coding": [
                {
                  "system": "https://hl7chile.cl/fhir/ig/clcore/CodeSystem/CSTipoIdentificador",
                  "code": "01",
                  "display": "RUN"
                }
              ],
              "text": "Rol Único Nacional"
            },
            "value": "90000000-6",
            "assigner": {
              "display": "Republica de Chile"
            }
          }
        ],
        "active": true,
        "name": [
          {
            "use": "official",
            "family": "Gonzalez",
            "_family": {
              "extension": [
                {
                  "url": "https://hl7chile.cl/fhir/ig/clcore/StructureDefinition/SegundoApellido",
                  "valueString": "Morales"
                }
              ]
            },
            "given": ["María", "Josefina"]
          }
        ],
        "telecom": [
          {
            "system": "phone",
            "value": "(562) 5555 6473",
            "use": "work",
            "rank": 1
          }
        ],
        "gender": "male",
        "birthDate": "1974-12-25",
        "deceasedBoolean": false,
        "address": [
          {
            "use": "home",
            "text": "Calle Arrabal Conchita Tejeda Nº 24, Esc. 432",
            "line": ["Calle Arrabal Conchita Tejeda"],
            "city": "Huara",
            "_city": {
              "extension": [
                {
                  "url": "https://hl7chile.cl/fhir/ig/clcore/StructureDefinition/ComunasCl",
                  "valueCodeableConcept": {
                    "coding": [
                      {
                        "system": "https://hl7chile.cl/fhir/ig/clcore/CodeSystem/CSCodComunasCL",
                        "code": "01404",
                        "display": "Huara"
                      }
                    ]
                  }
                }
              ]
            },
            "district": "Provincia del Tamarugal",
            "_district": {
              "extension": [
                {
                  "url": "https://hl7chile.cl/fhir/ig/clcore/StructureDefinition/ProvinciasCl",
                  "valueCodeableConcept": {
                    "coding": [
                      {
                        "system": "https://hl7chile.cl/fhir/ig/clcore/CodeSystem/CSCodProvinciasCL",
                        "code": "014",
                        "display": "Tamarugal"
                      }
                    ]
                  }
                }
              ]
            },
            "state": "Región de Tarapacá",
            "_state": {
              "extension": [
                {
                  "url": "https://hl7chile.cl/fhir/ig/clcore/StructureDefinition/RegionesCl",
                  "valueCodeableConcept": {
                    "coding": [
                      {
                        "system": "https://hl7chile.cl/fhir/ig/clcore/CodeSystem/CSCodRegionCL",
                        "code": "01",
                        "display": "Tarapacá"
                      }
                    ]
                  }
                }
              ]
            }
          }
        ]
      }
    },
    {
      "fullUrl": "http://interoperabilidad.minsal.cl/fhir/ig/tei/Condition/ConditionInicialEjemplo",
      "resource": {
        "resourceType": "Condition",
        "id": "ConditionInicialEjemplo",
        "meta": {
          "profile": [
            "https://interoperabilidad.minsal.cl/fhir/ig/tei/StructureDefinition/ConditionDiagnosticoLE"
          ]
        },
        "text": {
          "status": "generated",
          "div": "\u003Cdiv xmlns=\"http://www.w3.org/1999/xhtml\"\u003E\u003Ca name=\"Condition_ConditionInicialEjemplo\"\u003E \u003C/a\u003E\u003Cp class=\"res-header-id\"\u003E\u003Cb\u003EGenerated Narrative: Condition ConditionInicialEjemplo\u003C/b\u003E\u003C/p\u003E\u003Ca name=\"ConditionInicialEjemplo\"\u003E \u003C/a\u003E\u003Ca name=\"hcConditionInicialEjemplo\"\u003E \u003C/a\u003E\u003Ca name=\"ConditionInicialEjemplo-es-CL\"\u003E \u003C/a\u003E\u003Cdiv style=\"display: inline-block; background-color: #d9e0e7; padding: 6px; margin: 4px; border: 1px solid #8da1b4; border-radius: 5px; line-height: 60%\"\u003E\u003Cp style=\"margin-bottom: 0px\"/\u003E\u003Cp style=\"margin-bottom: 0px\"\u003EProfile: \u003Ca href=\"StructureDefinition-ConditionDiagnosticoLE.html\"\u003ECondition Diagnostico LE\u003C/a\u003E\u003C/p\u003E\u003C/div\u003E\u003Cp\u003E\u003Cb\u003EclinicalStatus\u003C/b\u003E: \u003Cspan title=\"Codes:{http://terminology.hl7.org/CodeSystem/condition-clinical active}\"\u003EActivo\u003C/span\u003E\u003C/p\u003E\u003Cp\u003E\u003Cb\u003EverificationStatus\u003C/b\u003E: \u003Cspan title=\"Codes:{http://terminology.hl7.org/CodeSystem/condition-ver-status confirmed}\"\u003EConfirmado\u003C/span\u003E\u003C/p\u003E\u003Cp\u003E\u003Cb\u003Ecategory\u003C/b\u003E: \u003Cspan title=\"Codes:{http://terminology.hl7.org/CodeSystem/condition-category encounter-diagnosis}\"\u003EDiagnostico del encuentro\u003C/span\u003E\u003C/p\u003E\u003Cp\u003E\u003Cb\u003Eseverity\u003C/b\u003E: \u003Cspan title=\"Codes:{http://snomed.info/sct 24484000}\"\u003ESevero\u003C/span\u003E\u003C/p\u003E\u003Cp\u003E\u003Cb\u003Ecode\u003C/b\u003E: \u003Cspan title=\"Codes:{http://snomed.info/sct 165865000}\"\u003Eanticuerpos contra glándulas suprarrenales detectados\u003C/span\u003E\u003C/p\u003E\u003Cp\u003E\u003Cb\u003Esubject\u003C/b\u003E: \u003Ca href=\"Patient-EjemploPatientLE.html\"\u003EMaría Josefina Gonzalez (official) Male, DoB: 1974-12-25 ( Rol Único Nacional: 90000000-6 (use: official, ))\u003C/a\u003E\u003C/p\u003E\u003Cp\u003E\u003Cb\u003Eencounter\u003C/b\u003E: \u003Ca href=\"Encounter-EncounterIniciarEjemplo.html\"\u003EEncounter: extension = Derivación; identifier = http://example.org/sampleencounter-identifier#123 (use: official, ); status = finished; class = Presencial (Modalidad Atencion Codigo#1); period = 2024-01-17 16:00:00+1000 --&gt; 2024-01-17 16:30:00+1000\u003C/a\u003E\u003C/p\u003E\u003C/div\u003E"
        },
        "clinicalStatus": {
          "coding": [
            {
              "system": "http://terminology.hl7.org/CodeSystem/condition-clinical",
              "code": "active",
              "display": "Active"
            }
          ],
          "text": "Activo"
        },
        "verificationStatus": {
          "coding": [
            {
              "system": "http://terminology.hl7.org/CodeSystem/condition-ver-status",
              "code": "confirmed",
              "display": "Confirmed"
            }
          ],
          "text": "Confirmado"
        },
        "category": [
          {
            "coding": [
              {
                "system": "http://terminology.hl7.org/CodeSystem/condition-category",
                "code": "encounter-diagnosis",
                "display": "Encounter Diagnosis"
              }
            ],
            "text": "Diagnostico del encuentro"
          }
        ],
        "severity": {
          "coding": [
            {
              "system": "http://snomed.info/sct",
              "code": "24484000",
              "display": "Severe"
            }
          ],
          "text": "Severo"
        },
        "code": {
          "coding": [
            {
              "system": "http://snomed.info/sct",
              "code": "165865000",
              "display": "Adrenal antibody detected"
            }
          ],
          "text": "anticuerpos contra glándulas suprarrenales detectados"
        },
        "subject": {
          "reference": "Patient/EjemploPatientLE"
        },
        "encounter": {
          "reference": "Encounter/EncounterIniciarEjemplo"
        }
      }
    },
    {
      "fullUrl": "http://interoperabilidad.minsal.cl/fhir/ig/tei/Observation/IndiceConmorbilidadEjemplo",
      "resource": {
        "resourceType": "Observation",
        "id": "IndiceConmorbilidadEjemplo",
        "meta": {
          "profile": [
            "https://interoperabilidad.minsal.cl/fhir/ig/tei/StructureDefinition/ObservationIndiceComorbilidadLE"
          ]
        },
        "text": {
          "status": "generated",
          "div": "\u003Cdiv xmlns=\"http://www.w3.org/1999/xhtml\"\u003E\u003Ca name=\"Observation_IndiceConmorbilidadEjemplo\"\u003E \u003C/a\u003E\u003Cp class=\"res-header-id\"\u003E\u003Cb\u003EGenerated Narrative: Observation IndiceConmorbilidadEjemplo\u003C/b\u003E\u003C/p\u003E\u003Ca name=\"IndiceConmorbilidadEjemplo\"\u003E \u003C/a\u003E\u003Ca name=\"hcIndiceConmorbilidadEjemplo\"\u003E \u003C/a\u003E\u003Ca name=\"IndiceConmorbilidadEjemplo-es-CL\"\u003E \u003C/a\u003E\u003Cdiv style=\"display: inline-block; background-color: #d9e0e7; padding: 6px; margin: 4px; border: 1px solid #8da1b4; border-radius: 5px; line-height: 60%\"\u003E\u003Cp style=\"margin-bottom: 0px\"/\u003E\u003Cp style=\"margin-bottom: 0px\"\u003EProfile: \u003Ca href=\"StructureDefinition-ObservationIndiceComorbilidadLE.html\"\u003EIndice Comorbilidad LE\u003C/a\u003E\u003C/p\u003E\u003C/div\u003E\u003Cp\u003E\u003Cb\u003Estatus\u003C/b\u003E: Final\u003C/p\u003E\u003Cp\u003E\u003Cb\u003Ecategory\u003C/b\u003E: \u003Cspan title=\"Codes:{http://terminology.hl7.org/CodeSystem/observation-category survey}\"\u003ESurvey\u003C/span\u003E\u003C/p\u003E\u003Cp\u003E\u003Cb\u003Ecode\u003C/b\u003E: \u003Cspan title=\"Codes:{https://interoperabilidad.minsal.cl/fhir/ig/tei/CodeSystem/CSTipoObservacionMinsal ECICEP}\"\u003EIndice Comorbilidad\u003C/span\u003E\u003C/p\u003E\u003Cp\u003E\u003Cb\u003Esubject\u003C/b\u003E: \u003Ca href=\"Patient-EjemploPatientLE.html\"\u003EMaría Josefina Gonzalez (official) Male, DoB: 1974-12-25 ( Rol Único Nacional: 90000000-6 (use: official, ))\u003C/a\u003E\u003C/p\u003E\u003Cp\u003E\u003Cb\u003Eencounter\u003C/b\u003E: \u003Ca href=\"Encounter-EncounterIniciarEjemplo.html\"\u003EEncounter: extension = Derivación; identifier = http://example.org/sampleencounter-identifier#123 (use: official, ); status = finished; class = Presencial (Modalidad Atencion Codigo#1); period = 2024-01-17 16:00:00+1000 --&gt; 2024-01-17 16:30:00+1000\u003C/a\u003E\u003C/p\u003E\u003Cp\u003E\u003Cb\u003Evalue\u003C/b\u003E: \u003Cspan title=\"Codes:{https://interoperabilidad.minsal.cl/fhir/ig/tei/CodeSystem/CSIndicecomorbilidad G2}\"\u003ERiesgo Moderado, 2 a 4 condiciones crónicas\u003C/span\u003E\u003C/p\u003E\u003C/div\u003E"
        },
        "status": "final",
        "category": [
          {
            "coding": [
              {
                "system": "http://terminology.hl7.org/CodeSystem/observation-category",
                "code": "survey"
              }
            ]
          }
        ],
        "code": {
          "coding": [
            {
              "system": "https://interoperabilidad.minsal.cl/fhir/ig/tei/CodeSystem/CSTipoObservacionMinsal",
              "code": "ECICEP"
            }
          ],
          "text": "Indice Comorbilidad"
        },
        "subject": {
          "reference": "Patient/EjemploPatientLE"
        },
        "encounter": {
          "reference": "Encounter/EncounterIniciarEjemplo"
        },
        "valueCodeableConcept": {
          "coding": [
            {
              "system": "https://interoperabilidad.minsal.cl/fhir/ig/tei/CodeSystem/CSIndicecomorbilidad",
              "code": "G2",
              "display": "Riesgo Moderado, 2 a 4 condiciones crónicas"
            }
          ]
        }
      }
    },
    {
      "fullUrl": "http://interoperabilidad.minsal.cl/fhir/ig/tei/Observation/EjemploObservationDiscapacidadLE",
      "resource": {
        "resourceType": "Observation",
        "id": "EjemploObservationDiscapacidadLE",
        "meta": {
          "profile": [
            "https://interoperabilidad.minsal.cl/fhir/ig/tei/StructureDefinition/ObservationDiscapacidadLE"
          ]
        },
        "text": {
          "status": "generated",
          "div": "\u003Cdiv xmlns=\"http://www.w3.org/1999/xhtml\"\u003E\u003Ca name=\"Observation_EjemploObservationDiscapacidadLE\"\u003E \u003C/a\u003E\u003Cp class=\"res-header-id\"\u003E\u003Cb\u003EGenerated Narrative: Observation EjemploObservationDiscapacidadLE\u003C/b\u003E\u003C/p\u003E\u003Ca name=\"EjemploObservationDiscapacidadLE\"\u003E \u003C/a\u003E\u003Ca name=\"hcEjemploObservationDiscapacidadLE\"\u003E \u003C/a\u003E\u003Ca name=\"EjemploObservationDiscapacidadLE-es-CL\"\u003E \u003C/a\u003E\u003Cdiv style=\"display: inline-block; background-color: #d9e0e7; padding: 6px; margin: 4px; border: 1px solid #8da1b4; border-radius: 5px; line-height: 60%\"\u003E\u003Cp style=\"margin-bottom: 0px\"/\u003E\u003Cp style=\"margin-bottom: 0px\"\u003EProfile: \u003Ca href=\"StructureDefinition-ObservationDiscapacidadLE.html\"\u003EDiscapacidad LE\u003C/a\u003E\u003C/p\u003E\u003C/div\u003E\u003Cp\u003E\u003Cb\u003Estatus\u003C/b\u003E: Final\u003C/p\u003E\u003Cp\u003E\u003Cb\u003Ecode\u003C/b\u003E: \u003Cspan title=\"Codes:{http://loinc.org 101720-1}\"\u003EDiscapacidad\u003C/span\u003E\u003C/p\u003E\u003Cp\u003E\u003Cb\u003Esubject\u003C/b\u003E: \u003Ca href=\"Patient-EjemploPatientLE.html\"\u003EMaría Josefina Gonzalez (official) Male, DoB: 1974-12-25 ( Rol Único Nacional: 90000000-6 (use: official, ))\u003C/a\u003E\u003C/p\u003E\u003Cp\u003E\u003Cb\u003Evalue\u003C/b\u003E: true\u003C/p\u003E\u003C/div\u003E"
        },
        "status": "final",
        "code": {
          "coding": [
            {
              "system": "http://loinc.org",
              "code": "101720-1",
              "display": "Disability status"
            }
          ],
          "text": "Discapacidad"
        },
        "subject": {
          "reference": "Patient/EjemploPatientLE"
        },
        "valueBoolean": true
      }
    },
    {
      "fullUrl": "http://interoperabilidad.minsal.cl/fhir/ig/tei/Observation/EjemploObservationCuidador",
      "resource": {
        "resourceType": "Observation",
        "id": "EjemploObservationCuidador",
        "meta": {
          "profile": [
            "https://interoperabilidad.minsal.cl/fhir/ig/tei/StructureDefinition/ObservationIniciarCuidadorLE"
          ]
        },
        "text": {
          "status": "generated",
          "div": "\u003Cdiv xmlns=\"http://www.w3.org/1999/xhtml\"\u003E\u003Ca name=\"Observation_EjemploObservationCuidador\"\u003E \u003C/a\u003E\u003Cp class=\"res-header-id\"\u003E\u003Cb\u003EGenerated Narrative: Observation EjemploObservationCuidador\u003C/b\u003E\u003C/p\u003E\u003Ca name=\"EjemploObservationCuidador\"\u003E \u003C/a\u003E\u003Ca name=\"hcEjemploObservationCuidador\"\u003E \u003C/a\u003E\u003Ca name=\"EjemploObservationCuidador-es-CL\"\u003E \u003C/a\u003E\u003Cdiv style=\"display: inline-block; background-color: #d9e0e7; padding: 6px; margin: 4px; border: 1px solid #8da1b4; border-radius: 5px; line-height: 60%\"\u003E\u003Cp style=\"margin-bottom: 0px\"/\u003E\u003Cp style=\"margin-bottom: 0px\"\u003EProfile: \u003Ca href=\"StructureDefinition-ObservationIniciarCuidadorLE.html\"\u003ECuidador LE\u003C/a\u003E\u003C/p\u003E\u003C/div\u003E\u003Cp\u003E\u003Cb\u003Estatus\u003C/b\u003E: Final\u003C/p\u003E\u003Cp\u003E\u003Cb\u003Ecode\u003C/b\u003E: \u003Cspan title=\"Codes:{http://loinc.org 95385-1}\"\u003ECuidador de una persona con dolencias relacionadas con la edad o enfermedades crónicas.\u003C/span\u003E\u003C/p\u003E\u003Cp\u003E\u003Cb\u003Esubject\u003C/b\u003E: \u003Ca href=\"Patient-EjemploPatientLE.html\"\u003EMaría Josefina Gonzalez (official) Male, DoB: 1974-12-25 ( Rol Único Nacional: 90000000-6 (use: official, ))\u003C/a\u003E\u003C/p\u003E\u003Cp\u003E\u003Cb\u003Evalue\u003C/b\u003E: true\u003C/p\u003E\u003C/div\u003E"
        },
        "status": "final",
        "code": {
          "coding": [
            {
              "system": "http://loinc.org",
              "code": "95385-1",
              "display": "Caregiver for person with age-related complaints, chronic diseases or frailty"
            }
          ],
          "text": "Cuidador de una persona con dolencias relacionadas con la edad o enfermedades crónicas."
        },
        "subject": {
          "reference": "Patient/EjemploPatientLE"
        },
        "valueBoolean": true
      }
    },
    {
      "fullUrl": "http://interoperabilidad.minsal.cl/fhir/ig/tei/Observation/AnticuerpoAdrenal",
      "resource": {
        "resourceType": "Observation",
        "id": "AnticuerpoAdrenal",
        "meta": {
          "profile": [
            "https://interoperabilidad.minsal.cl/fhir/ig/tei/StructureDefinition/ObservationResultadoExamen"
          ]
        },
        "text": {
          "status": "generated",
          "div": "\u003Cdiv xmlns=\"http://www.w3.org/1999/xhtml\"\u003E\u003Ca name=\"Observation_AnticuerpoAdrenal\"\u003E \u003C/a\u003E\u003Cp class=\"res-header-id\"\u003E\u003Cb\u003EGenerated Narrative: Observation AnticuerpoAdrenal\u003C/b\u003E\u003C/p\u003E\u003Ca name=\"AnticuerpoAdrenal\"\u003E \u003C/a\u003E\u003Ca name=\"hcAnticuerpoAdrenal\"\u003E \u003C/a\u003E\u003Ca name=\"AnticuerpoAdrenal-es-CL\"\u003E \u003C/a\u003E\u003Cdiv style=\"display: inline-block; background-color: #d9e0e7; padding: 6px; margin: 4px; border: 1px solid #8da1b4; border-radius: 5px; line-height: 60%\"\u003E\u003Cp style=\"margin-bottom: 0px\"/\u003E\u003Cp style=\"margin-bottom: 0px\"\u003EProfile: \u003Ca href=\"StructureDefinition-ObservationResultadoExamen.html\"\u003EObservation Resultado Examen\u003C/a\u003E\u003C/p\u003E\u003C/div\u003E\u003Cp\u003E\u003Cb\u003Estatus\u003C/b\u003E: Registered\u003C/p\u003E\u003Cp\u003E\u003Cb\u003Ecategory\u003C/b\u003E: \u003Cspan title=\"Codes:{http://terminology.hl7.org/CodeSystem/observation-category laboratory}\"\u003ELaboratory\u003C/span\u003E\u003C/p\u003E\u003Cp\u003E\u003Cb\u003Ecode\u003C/b\u003E: \u003Cspan title=\"Codes:{http://loinc.org 8059-8}\"\u003EAb adrenal en Sérum\u003C/span\u003E\u003C/p\u003E\u003Cp\u003E\u003Cb\u003Esubject\u003C/b\u003E: \u003Ca href=\"Patient-EjemploPatientLE.html\"\u003EMaría Josefina Gonzalez (official) Male, DoB: 1974-12-25 ( Rol Único Nacional: 90000000-6 (use: official, ))\u003C/a\u003E\u003C/p\u003E\u003Cp\u003E\u003Cb\u003Eencounter\u003C/b\u003E: \u003Ca href=\"Encounter-EncounterIniciarEjemplo.html\"\u003EEncounter: extension = Derivación; identifier = http://example.org/sampleencounter-identifier#123 (use: official, ); status = finished; class = Presencial (Modalidad Atencion Codigo#1); period = 2024-01-17 16:00:00+1000 --&gt; 2024-01-17 16:30:00+1000\u003C/a\u003E\u003C/p\u003E\u003Cp\u003E\u003Cb\u003Eeffective\u003C/b\u003E: 2024-01-17 15:00:00-0300\u003C/p\u003E\u003Cp\u003E\u003Cb\u003Evalue\u003C/b\u003E: 10 arb'U/mL\u003Cspan style=\"background: LightGoldenRodYellow\"\u003E (Details: UCUM  code[arb'U]/mL = '[arb'U]/mL')\u003C/span\u003E\u003C/p\u003E\u003C/div\u003E"
        },
        "status": "registered",
        "category": [
          {
            "coding": [
              {
                "system": "http://terminology.hl7.org/CodeSystem/observation-category",
                "code": "laboratory"
              }
            ]
          }
        ],
        "code": {
          "coding": [
            {
              "system": "http://loinc.org",
              "code": "8059-8"
            }
          ],
          "text": "Ab adrenal en Sérum"
        },
        "subject": {
          "reference": "Patient/EjemploPatientLE"
        },
        "encounter": {
          "reference": "Encounter/EncounterIniciarEjemplo"
        },
        "effectiveDateTime": "2024-01-17T15:00:00-03:00",
        "valueQuantity": {
          "value": 10,
          "unit": "arb'U/mL",
          "system": "http://unitsofmeasure.org",
          "code": "[arb'U]/mL"
        }
      }
    },
    {
      "fullUrl": "http://interoperabilidad.minsal.cl/fhir/ig/tei/AllergyIntolerance/AllergyIntoleranceExample",
      "resource": {
        "resourceType": "AllergyIntolerance",
        "id": "AllergyIntoleranceExample",
        "meta": {
          "profile": [
            "https://interoperabilidad.minsal.cl/fhir/ig/tei/StructureDefinition/AllergyIntoleranceIniciarLE"
          ]
        },
        "text": {
          "status": "generated",
          "div": "\u003Cdiv xmlns=\"http://www.w3.org/1999/xhtml\"\u003E\u003Ca name=\"AllergyIntolerance_AllergyIntoleranceExample\"\u003E \u003C/a\u003E\u003Cp class=\"res-header-id\"\u003E\u003Cb\u003EGenerated Narrative: AllergyIntolerance AllergyIntoleranceExample\u003C/b\u003E\u003C/p\u003E\u003Ca name=\"AllergyIntoleranceExample\"\u003E \u003C/a\u003E\u003Ca name=\"hcAllergyIntoleranceExample\"\u003E \u003C/a\u003E\u003Ca name=\"AllergyIntoleranceExample-es-CL\"\u003E \u003C/a\u003E\u003Cdiv style=\"display: inline-block; background-color: #d9e0e7; padding: 6px; margin: 4px; border: 1px solid #8da1b4; border-radius: 5px; line-height: 60%\"\u003E\u003Cp style=\"margin-bottom: 0px\"/\u003E\u003Cp style=\"margin-bottom: 0px\"\u003EProfile: \u003Ca href=\"StructureDefinition-AllergyIntoleranceIniciarLE.html\"\u003EAllergyIntolerance Iniciar LE\u003C/a\u003E\u003C/p\u003E\u003C/div\u003E\u003Cp\u003E\u003Cb\u003EclinicalStatus\u003C/b\u003E: \u003Cspan title=\"Codes:{http://terminology.hl7.org/CodeSystem/allergyintolerance-clinical active}\"\u003EActivo\u003C/span\u003E\u003C/p\u003E\u003Cp\u003E\u003Cb\u003EverificationStatus\u003C/b\u003E: \u003Cspan title=\"Codes:{http://terminology.hl7.org/CodeSystem/allergyintolerance-verification confirmed}\"\u003EConfirmado\u003C/span\u003E\u003C/p\u003E\u003Cp\u003E\u003Cb\u003Ecode\u003C/b\u003E: \u003Cspan title=\"Codes:{http://snomed.info/sct 227493005}\"\u003EAlergía a castaña de cajú\u003C/span\u003E\u003C/p\u003E\u003Cp\u003E\u003Cb\u003Epatient\u003C/b\u003E: \u003Ca href=\"Patient-EjemploPatientLE.html\"\u003EMaría Josefina Gonzalez (official) Male, DoB: 1974-12-25 ( Rol Único Nacional: 90000000-6 (use: official, ))\u003C/a\u003E\u003C/p\u003E\u003C/div\u003E"
        },
        "clinicalStatus": {
          "coding": [
            {
              "system": "http://terminology.hl7.org/CodeSystem/allergyintolerance-clinical",
              "code": "active",
              "display": "Active"
            }
          ],
          "text": "Activo"
        },
        "verificationStatus": {
          "coding": [
            {
              "system": "http://terminology.hl7.org/CodeSystem/allergyintolerance-verification",
              "code": "confirmed",
              "display": "Confirmed"
            }
          ],
          "text": "Confirmado"
        },
        "code": {
          "coding": [
            {
              "system": "http://snomed.info/sct",
              "code": "227493005"
            }
          ],
          "text": "Alergía a castaña de cajú"
        },
        "patient": {
          "reference": "Patient/EjemploPatientLE"
        }
      }
    },
    {
      "fullUrl": "http://interoperabilidad.minsal.cl/fhir/ig/tei/PractitionerRole/PractitionerRoleIniciador",
      "resource": {
        "resourceType": "PractitionerRole",
        "id": "PractitionerRoleIniciador",
        "meta": {
          "profile": [
            "https://interoperabilidad.minsal.cl/fhir/ig/tei/StructureDefinition/PractitionerRoleLE"
          ]
        },
        "text": {
          "status": "generated",
          "div": "\u003Cdiv xmlns=\"http://www.w3.org/1999/xhtml\"\u003E\u003Ca name=\"PractitionerRole_PractitionerRoleIniciador\"\u003E \u003C/a\u003E\u003Cp class=\"res-header-id\"\u003E\u003Cb\u003EGenerated Narrative: PractitionerRole PractitionerRoleIniciador\u003C/b\u003E\u003C/p\u003E\u003Ca name=\"PractitionerRoleIniciador\"\u003E \u003C/a\u003E\u003Ca name=\"hcPractitionerRoleIniciador\"\u003E \u003C/a\u003E\u003Ca name=\"PractitionerRoleIniciador-es-CL\"\u003E \u003C/a\u003E\u003Cdiv style=\"display: inline-block; background-color: #d9e0e7; padding: 6px; margin: 4px; border: 1px solid #8da1b4; border-radius: 5px; line-height: 60%\"\u003E\u003Cp style=\"margin-bottom: 0px\"/\u003E\u003Cp style=\"margin-bottom: 0px\"\u003EProfile: \u003Ca href=\"StructureDefinition-PractitionerRoleLE.html\"\u003EPractitionerRole LE\u003C/a\u003E\u003C/p\u003E\u003C/div\u003E\u003Cp\u003E\u003Cb\u003Eactive\u003C/b\u003E: true\u003C/p\u003E\u003Cp\u003E\u003Cb\u003Epractitioner\u003C/b\u003E: \u003Ca href=\"Practitioner-PractitionerProfesionalLEEjemplo.html\"\u003EPractitioner Víctor Gonzalez \u003C/a\u003E\u003C/p\u003E\u003Cp\u003E\u003Cb\u003Eorganization\u003C/b\u003E: \u003Ca href=\"Organization-OrganizationLEEjemplo.html\"\u003EOrganization Complejo Asistencial Dr. Víctor Ríos Ruiz (Los Ángeles)\u003C/a\u003E\u003C/p\u003E\u003Cp\u003E\u003Cb\u003Ecode\u003C/b\u003E: \u003Cspan title=\"Codes:{https://interoperabilidad.minsal.cl/fhir/ig/tei/CodeSystem/CSPractitionerTipoRolLE iniciador}\"\u003EIniciador\u003C/span\u003E\u003C/p\u003E\u003C/div\u003E"
        },
        "active": true,
        "practitioner": {
          "reference": "Practitioner/PractitionerProfesionalLEEjemplo"
        },
        "organization": {
          "reference": "Organization/OrganizationLEEjemplo"
        },
        "code": [
          {
            "coding": [
              {
                "system": "https://interoperabilidad.minsal.cl/fhir/ig/tei/CodeSystem/CSPractitionerTipoRolLE",
                "code": "iniciador",
                "display": "Iniciador"
              }
            ]
          }
        ]
      }
    },
    {
      "fullUrl": "http://interoperabilidad.minsal.cl/fhir/ig/tei/Practitioner/PractitionerProfesionalLEEjemplo",
      "resource": {
        "resourceType": "Practitioner",
        "id": "PractitionerProfesionalLEEjemplo",
        "meta": {
          "profile": [
            "https://interoperabilidad.minsal.cl/fhir/ig/tei/StructureDefinition/PractitionerProfesionalLE"
          ]
        },
        "text": {
          "status": "generated",
          "div": "\u003Cdiv xmlns=\"http://www.w3.org/1999/xhtml\"\u003E\u003Ca name=\"Practitioner_PractitionerProfesionalLEEjemplo\"\u003E \u003C/a\u003E\u003Cp class=\"res-header-id\"\u003E\u003Cb\u003EGenerated Narrative: Practitioner PractitionerProfesionalLEEjemplo\u003C/b\u003E\u003C/p\u003E\u003Ca name=\"PractitionerProfesionalLEEjemplo\"\u003E \u003C/a\u003E\u003Ca name=\"hcPractitionerProfesionalLEEjemplo\"\u003E \u003C/a\u003E\u003Ca name=\"PractitionerProfesionalLEEjemplo-es-CL\"\u003E \u003C/a\u003E\u003Cdiv style=\"display: inline-block; background-color: #d9e0e7; padding: 6px; margin: 4px; border: 1px solid #8da1b4; border-radius: 5px; line-height: 60%\"\u003E\u003Cp style=\"margin-bottom: 0px\"/\u003E\u003Cp style=\"margin-bottom: 0px\"\u003EProfile: \u003Ca href=\"StructureDefinition-PractitionerProfesionalLE.html\"\u003EPrestador Profesional LE\u003C/a\u003E\u003C/p\u003E\u003C/div\u003E\u003Cp\u003E\u003Cb\u003Eidentifier\u003C/b\u003E: Rol Único Nacional/90000000-6 (use: official, ), Registro Nacional de Prestadores Individuales/9999999 (use: secondary, )\u003C/p\u003E\u003Cp\u003E\u003Cb\u003Eactive\u003C/b\u003E: true\u003C/p\u003E\u003Cp\u003E\u003Cb\u003Ename\u003C/b\u003E: Víctor Gonzalez \u003C/p\u003E\u003Cp\u003E\u003Cb\u003Eaddress\u003C/b\u003E: Dirección falsa 123,depto 1202 null (work)\u003C/p\u003E\u003Cp\u003E\u003Cb\u003Egender\u003C/b\u003E: Male\u003C/p\u003E\u003Cp\u003E\u003Cb\u003EbirthDate\u003C/b\u003E: 1980-01-01\u003C/p\u003E\u003Ch3\u003EQualifications\u003C/h3\u003E\u003Ctable class=\"grid\"\u003E\u003Ctr\u003E\u003Ctd style=\"display: none\"\u003E-\u003C/td\u003E\u003Ctd\u003E\u003Cb\u003EIdentifier\u003C/b\u003E\u003C/td\u003E\u003Ctd\u003E\u003Cb\u003ECode\u003C/b\u003E\u003C/td\u003E\u003Ctd\u003E\u003Cb\u003EPeriod\u003C/b\u003E\u003C/td\u003E\u003Ctd\u003E\u003Cb\u003EIssuer\u003C/b\u003E\u003C/td\u003E\u003C/tr\u003E\u003Ctr\u003E\u003Ctd style=\"display: none\"\u003E*\u003C/td\u003E\u003Ctd\u003Ecert\u003C/td\u003E\u003Ctd\u003E\u003Cspan title=\"Codes:{https://interoperabilidad.minsal.cl/fhir/ig/tei/CodeSystem/CSTituloProfesional 1}\"\u003EMÉDICO CIRUJANO\u003C/span\u003E\u003C/td\u003E\u003Ctd\u003E2007-11-01 --&gt; (ongoing)\u003C/td\u003E\u003Ctd\u003EUniversidad de Chile\u003C/td\u003E\u003C/tr\u003E\u003C/table\u003E\u003C/div\u003E"
        },
        "identifier": [
          {
            "use": "official",
            "type": {
              "coding": [
                {
                  "system": "https://hl7chile.cl/fhir/ig/clcore/CodeSystem/CSTipoIdentificador",
                  "code": "01",
                  "display": "RUN"
                }
              ],
              "text": "Rol Único Nacional"
            },
            "value": "90000000-6",
            "assigner": {
              "display": "Republica de Chile"
            }
          },
          {
            "use": "secondary",
            "type": {
              "coding": [
                {
                  "system": "https://hl7chile.cl/fhir/ig/clcore/CodeSystem/CSTipoIdentificador",
                  "code": "13",
                  "display": "RNPI"
                }
              ],
              "text": "Registro Nacional de Prestadores Individuales"
            },
            "value": "9999999",
            "assigner": {
              "display": "Intendencia de prestadores individuales - Superintendencia de Salud"
            }
          }
        ],
        "active": true,
        "name": [
          {
            "family": "Gonzalez",
            "_family": {
              "extension": [
                {
                  "url": "https://hl7chile.cl/fhir/ig/clcore/StructureDefinition/SegundoApellido",
                  "valueString": "Torres"
                }
              ]
            },
            "given": ["Víctor"],
            "prefix": ["Dr"]
          }
        ],
        "address": [
          {
            "use": "work",
            "line": ["Dirección falsa 123,depto 1202"],
            "_state": {
              "extension": [
                {
                  "url": "https://hl7chile.cl/fhir/ig/clcore/StructureDefinition/RegionesCl",
                  "valueCodeableConcept": {
                    "coding": [
                      {
                        "system": "https://hl7chile.cl/fhir/ig/clcore/CodeSystem/CSCodRegionCL",
                        "code": "13",
                        "display": "Metropolitana de Santiago"
                      }
                    ]
                  }
                }
              ]
            }
          }
        ],
        "gender": "male",
        "birthDate": "1980-01-01",
        "qualification": [
          {
            "identifier": [
              {
                "value": "cert"
              }
            ],
            "code": {
              "coding": [
                {
                  "system": "https://interoperabilidad.minsal.cl/fhir/ig/tei/CodeSystem/CSTituloProfesional",
                  "code": "1",
                  "display": "MÉDICO CIRUJANO"
                }
              ],
              "text": "MÉDICO CIRUJANO"
            },
            "period": {
              "start": "2007-11-01"
            },
            "issuer": {
              "display": "Universidad de Chile"
            }
          }
        ]
      }
    },
    {
      "fullUrl": "http://interoperabilidad.minsal.cl/fhir/ig/tei/Organization/OrganizationLEEjemplo",
      "resource": {
        "resourceType": "Organization",
        "id": "OrganizationLEEjemplo",
        "meta": {
          "profile": [
            "https://interoperabilidad.minsal.cl/fhir/ig/tei/StructureDefinition/OrganizationLE"
          ]
        },
        "text": {
          "status": "generated",
          "div": "\u003Cdiv xmlns=\"http://www.w3.org/1999/xhtml\"\u003E\u003Ca name=\"Organization_OrganizationLEEjemplo\"\u003E \u003C/a\u003E\u003Cp class=\"res-header-id\"\u003E\u003Cb\u003EGenerated Narrative: Organization OrganizationLEEjemplo\u003C/b\u003E\u003C/p\u003E\u003Ca name=\"OrganizationLEEjemplo\"\u003E \u003C/a\u003E\u003Ca name=\"hcOrganizationLEEjemplo\"\u003E \u003C/a\u003E\u003Ca name=\"OrganizationLEEjemplo-es-CL\"\u003E \u003C/a\u003E\u003Cdiv style=\"display: inline-block; background-color: #d9e0e7; padding: 6px; margin: 4px; border: 1px solid #8da1b4; border-radius: 5px; line-height: 60%\"\u003E\u003Cp style=\"margin-bottom: 0px\"/\u003E\u003Cp style=\"margin-bottom: 0px\"\u003EProfile: \u003Ca href=\"StructureDefinition-OrganizationLE.html\"\u003EOrganization LE\u003C/a\u003E\u003C/p\u003E\u003C/div\u003E\u003Cp\u003E\u003Cb\u003Eidentifier\u003C/b\u003E: \u003Ccode\u003Ehttps://interoperabilidad.minsal.cl/fhir/ig/tei/CodeSystem/CSEstablecimientoDestino\u003C/code\u003E/120101\u003C/p\u003E\u003Cp\u003E\u003Cb\u003Ename\u003C/b\u003E: Complejo Asistencial Dr. Víctor Ríos Ruiz (Los Ángeles)\u003C/p\u003E\u003Cp\u003E\u003Cb\u003Ealias\u003C/b\u003E: Hospital de Los Ángeles\u003C/p\u003E\u003Cp\u003E\u003Cb\u003Etelecom\u003C/b\u003E: ph: (+56) 432336000\u003C/p\u003E\u003Cp\u003E\u003Cb\u003Eaddress\u003C/b\u003E: Ricardo Vicuña 147 Los Ángeles 4451055 Chile \u003C/p\u003E\u003C/div\u003E"
        },
        "identifier": [
          {
            "system": "https://interoperabilidad.minsal.cl/fhir/ig/tei/CodeSystem/CSEstablecimientoDestino",
            "value": "120101"
          }
        ],
        "name": "Complejo Asistencial Dr. Víctor Ríos Ruiz (Los Ángeles)",
        "alias": ["Hospital de Los Ángeles"],
        "telecom": [
          {
            "system": "phone",
            "value": "(+56) 432336000"
          }
        ],
        "address": [
          {
            "line": ["Ricardo Vicuña 147"],
            "city": "Los Ángeles",
            "_city": {
              "extension": [
                {
                  "url": "https://hl7chile.cl/fhir/ig/clcore/StructureDefinition/ComunasCl",
                  "valueCodeableConcept": {
                    "coding": [
                      {
                        "system": "https://hl7chile.cl/fhir/ig/clcore/CodeSystem/CSCodComunasCL",
                        "code": "08301",
                        "display": "Los Ángeles"
                      }
                    ]
                  }
                }
              ]
            },
            "postalCode": "4451055",
            "country": "Chile",
            "_country": {
              "extension": [
                {
                  "url": "https://hl7chile.cl/fhir/ig/clcore/StructureDefinition/CodigoPaises",
                  "valueCodeableConcept": {
                    "coding": [
                      {
                        "system": "https://hl7chile.cl/fhir/ig/clcore/CodeSystem/CodPais",
                        "code": "152",
                        "display": "Chile"
                      }
                    ]
                  }
                }
              ]
            }
          }
        ]
      }
    },
    {
      "fullUrl": "http://interoperabilidad.minsal.cl/fhir/ig/tei/QuestionnaireResponse/MotivoDerivacionEjemplo",
      "resource": {
        "resourceType": "QuestionnaireResponse",
        "id": "MotivoDerivacionEjemplo",
        "meta": {
          "profile": [
            "https://interoperabilidad.minsal.cl/fhir/ig/tei/StructureDefinition/QuestionnaireResponseIniciarLE"
          ]
        },
        "text": {
          "status": "generated",
          "div": "\u003Cdiv xmlns=\"http://www.w3.org/1999/xhtml\"\u003E\u003Ca name=\"QuestionnaireResponse_MotivoDerivacionEjemplo\"\u003E \u003C/a\u003E\u003Cp class=\"res-header-id\"\u003E\u003Cb\u003EGenerated Narrative: QuestionnaireResponse MotivoDerivacionEjemplo\u003C/b\u003E\u003C/p\u003E\u003Ca name=\"MotivoDerivacionEjemplo\"\u003E \u003C/a\u003E\u003Ca name=\"hcMotivoDerivacionEjemplo\"\u003E \u003C/a\u003E\u003Ca name=\"MotivoDerivacionEjemplo-es-CL\"\u003E \u003C/a\u003E\u003Cdiv style=\"display: inline-block; background-color: #d9e0e7; padding: 6px; margin: 4px; border: 1px solid #8da1b4; border-radius: 5px; line-height: 60%\"\u003E\u003Cp style=\"margin-bottom: 0px\"/\u003E\u003Cp style=\"margin-bottom: 0px\"\u003EProfile: \u003Ca href=\"StructureDefinition-QuestionnaireResponseIniciarLE.html\"\u003EQuestionnaireResponse Iniciar Motivo de la Derivación LE\u003C/a\u003E\u003C/p\u003E\u003C/div\u003E\u003Ctable border=\"1\" cellpadding=\"0\" cellspacing=\"0\" style=\"border: 1px #F0F0F0 solid; font-size: 11px; font-family: verdana; vertical-align: top;\"\u003E\u003Ctr style=\"border: 2px #F0F0F0 solid; font-size: 11px; font-family: verdana; vertical-align: top\"\u003E\u003Cth style=\"vertical-align: top; text-align : left; background-color: white; border: 1px #F0F0F0 solid; padding:0px 4px 0px 4px; padding-top: 3px; padding-bottom: 3px\" class=\"hierarchy\"\u003E\u003Ca href=\"http://hl7.org/fhir/R4/formats.html#table\" title=\"The linkID for the item\"\u003ELinkID\u003C/a\u003E\u003C/th\u003E\u003Cth style=\"vertical-align: top; text-align : left; background-color: white; border: 1px #F0F0F0 solid; padding:0px 4px 0px 4px; padding-top: 3px; padding-bottom: 3px\" class=\"hierarchy\"\u003E\u003Ca href=\"http://hl7.org/fhir/R4/formats.html#table\" title=\"Text for the item\"\u003EText\u003C/a\u003E\u003C/th\u003E\u003Cth style=\"vertical-align: top; text-align : left; background-color: white; border: 1px #F0F0F0 solid; padding:0px 4px 0px 4px; padding-top: 3px; padding-bottom: 3px\" class=\"hierarchy\"\u003E\u003Ca href=\"http://hl7.org/fhir/R4/formats.html#table\" title=\"Minimum and Maximum # of times the item can appear in the instance\"\u003EDefinition\u003C/a\u003E\u003C/th\u003E\u003Cth style=\"vertical-align: top; text-align : left; background-color: white; border: 1px #F0F0F0 solid; padding:0px 4px 0px 4px; padding-top: 3px; padding-bottom: 3px\" class=\"hierarchy\"\u003E\u003Ca href=\"http://hl7.org/fhir/R4/formats.html#table\" title=\"The type of the item\"\u003EAnswer\u003C/a\u003E\u003Cspan style=\"float: right\"\u003E\u003Ca href=\"http://hl7.org/fhir/R4/formats.html#table\" title=\"Legend for this format\"\u003E\u003Cimg src=\"data:image/png;base64,\" alt=\"doco\" style=\"background-color: inherit\"/\u003E\u003C/a\u003E\u003C/span\u003E\u003C/th\u003E\u003C/tr\u003E\u003Ctr style=\"border: 1px #F0F0F0 solid; padding:0px; vertical-align: top; background-color: white\"\u003E\u003Ctd style=\"vertical-align: top; text-align : left; background-color: white; border: 1px #F0F0F0 solid; padding:0px 4px 0px 4px; white-space: nowrap; background-image: url(tbl_bck1.png)\" class=\"hierarchy\"\u003E\u003Cimg src=\"tbl_spacer.png\" alt=\".\" style=\"background-color: inherit\" class=\"hierarchy\"/\u003E\u003Cimg src=\"icon_q_root.gif\" alt=\".\" style=\"background-color: white; background-color: inherit\" title=\"QuestionnaireResponseRoot\" class=\"hierarchy\"/\u003E MotivoDerivacionEjemplo\u003C/td\u003E\u003Ctd style=\"vertical-align: top; text-align : left; background-color: white; border: 1px #F0F0F0 solid; padding:0px 4px 0px 4px\" class=\"hierarchy\"\u003E\u003C/td\u003E\u003Ctd style=\"vertical-align: top; text-align : left; background-color: white; border: 1px #F0F0F0 solid; padding:0px 4px 0px 4px\" class=\"hierarchy\"\u003E\u003C/td\u003E\u003Ctd style=\"vertical-align: top; text-align : left; background-color: white; border: 1px #F0F0F0 solid; padding:0px 4px 0px 4px\" class=\"hierarchy\"\u003EQuestionnaire:\u003Ca href=\"Questionnaire-MotivoDerivacion.html\"\u003EMotivo de Derivación\u003C/a\u003E\u003C/td\u003E\u003C/tr\u003E\r\n\u003Ctr style=\"border: 1px #F0F0F0 solid; padding:0px; vertical-align: top; background-color: #F7F7F7\"\u003E\u003Ctd style=\"vertical-align: top; text-align : left; background-color: #F7F7F7; border: 1px #F0F0F0 solid; padding:0px 4px 0px 4px; white-space: nowrap; background-image: url(tbl_bck00.png)\" class=\"hierarchy\"\u003E\u003Cimg src=\"tbl_spacer.png\" alt=\".\" style=\"background-color: inherit\" class=\"hierarchy\"/\u003E\u003Cimg src=\"tbl_vjoin_end.png\" alt=\".\" style=\"background-color: inherit\" class=\"hierarchy\"/\u003E\u003Cimg src=\"icon-q-string.png\" alt=\".\" style=\"background-color: #F7F7F7; background-color: inherit\" title=\"Item\" class=\"hierarchy\"/\u003E MotivoDerivacion\u003C/td\u003E\u003Ctd style=\"vertical-align: top; text-align : left; background-color: #F7F7F7; border: 1px #F0F0F0 solid; padding:0px 4px 0px 4px\" class=\"hierarchy\"\u003EMotivo Derivación\u003C/td\u003E\u003Ctd style=\"vertical-align: top; text-align : left; background-color: #F7F7F7; border: 1px #F0F0F0 solid; padding:0px 4px 0px 4px\" class=\"hierarchy\"/\u003E\u003Ctd style=\"vertical-align: top; text-align : left; background-color: #F7F7F7; border: 1px #F0F0F0 solid; padding:0px 4px 0px 4px\" class=\"hierarchy\"\u003EPaciente sufre de alzas constantes de presión no manejadas en APS. Comienza con precordalgia aguda.\u003C/td\u003E\u003C/tr\u003E\r\n\u003Ctr\u003E\u003Ctd colspan=\"4\" class=\"hierarchy\"\u003E\u003Cbr/\u003E\u003Ca href=\"http://hl7.org/fhir/R4/formats.html#table\" title=\"Legend for this format\"\u003E\u003Cimg src=\"data:image/png;base64,\" alt=\"doco\" style=\"background-color: inherit\"/\u003E Documentation for this format\u003C/a\u003E\u003C/td\u003E\u003C/tr\u003E\u003C/table\u003E\u003C/div\u003E"
        },
        "questionnaire": "https://interoperabilidad.minsal.cl/fhir/ig/tei/Questionnaire/MotivoDerivacion",
        "status": "completed",
        "subject": {
          "reference": "Patient/EjemploPatientLE"
        },
        "encounter": {
          "reference": "Encounter/EncounterIniciarEjemplo"
        },
        "author": {
          "reference": "Practitioner/PractitionerProfesionalLEEjemplo"
        },
        "item": [
          {
            "linkId": "MotivoDerivacion",
            "text": "Motivo Derivación",
            "answer": [
              {
                "valueString": "Paciente sufre de alzas constantes de presión no manejadas en APS. Comienza con precordalgia aguda."
              }
            ]
          }
        ]
      }
    },
    {
      "fullUrl": "http://interoperabilidad.minsal.cl/fhir/ig/tei/ServiceRequest/SolicitudExamenEjemplo",
      "resource": {
        "resourceType": "ServiceRequest",
        "id": "SolicitudExamenEjemplo",
        "meta": {
          "profile": [
            "https://interoperabilidad.minsal.cl/fhir/ig/tei/StructureDefinition/ServiceRequestExamenLE"
          ]
        },
        "text": {
          "status": "generated",
          "div": "\u003Cdiv xmlns=\"http://www.w3.org/1999/xhtml\"\u003E\u003Ca name=\"ServiceRequest_SolicitudExamenEjemplo\"\u003E \u003C/a\u003E\u003Cp class=\"res-header-id\"\u003E\u003Cb\u003EGenerated Narrative: ServiceRequest SolicitudExamenEjemplo\u003C/b\u003E\u003C/p\u003E\u003Ca name=\"SolicitudExamenEjemplo\"\u003E \u003C/a\u003E\u003Ca name=\"hcSolicitudExamenEjemplo\"\u003E \u003C/a\u003E\u003Ca name=\"SolicitudExamenEjemplo-es-CL\"\u003E \u003C/a\u003E\u003Cdiv style=\"display: inline-block; background-color: #d9e0e7; padding: 6px; margin: 4px; border: 1px solid #8da1b4; border-radius: 5px; line-height: 60%\"\u003E\u003Cp style=\"margin-bottom: 0px\"/\u003E\u003Cp style=\"margin-bottom: 0px\"\u003EProfile: \u003Ca href=\"StructureDefinition-ServiceRequestExamenLE.html\"\u003ESolicitud de Examen LE\u003C/a\u003E\u003C/p\u003E\u003C/div\u003E\u003Cp\u003E\u003Cb\u003EbasedOn\u003C/b\u003E: \u003Ca href=\"Bundle-BundleIniciarEjemplo.html#ServiceRequest_SolicitudInterconsultaEjemplo\"\u003EBundle: type = message; timestamp = 2024-01-17 16:00:00-0300\u003C/a\u003E\u003C/p\u003E\u003Cp\u003E\u003Cb\u003Estatus\u003C/b\u003E: Draft\u003C/p\u003E\u003Cp\u003E\u003Cb\u003Eintent\u003C/b\u003E: Order\u003C/p\u003E\u003Cp\u003E\u003Cb\u003Ecode\u003C/b\u003E: \u003Cspan title=\"Codes:{http://loinc.org 2857-1}\"\u003EAntigeno Prostático Específico en Suero o Plasma\u003C/span\u003E\u003C/p\u003E\u003Cp\u003E\u003Cb\u003Esubject\u003C/b\u003E: \u003Ca href=\"Patient-EjemploPatientLE.html\"\u003EMaría Josefina Gonzalez (official) Male, DoB: 1974-12-25 ( Rol Único Nacional: 90000000-6 (use: official, ))\u003C/a\u003E\u003C/p\u003E\u003Cp\u003E\u003Cb\u003EauthoredOn\u003C/b\u003E: 2024-01-17 16:00:00-0300\u003C/p\u003E\u003Cp\u003E\u003Cb\u003Erequester\u003C/b\u003E: \u003Ca href=\"Practitioner-PractitionerProfesionalLEEjemplo.html\"\u003EPractitioner Víctor Gonzalez \u003C/a\u003E\u003C/p\u003E\u003Cp\u003E\u003Cb\u003EreasonCode\u003C/b\u003E: \u003Cspan title=\"Codes:{http://snomed.info/sct 414205003}\"\u003Eantecedente familiar de neoplasia maligna de próstata\u003C/span\u003E\u003C/p\u003E\u003Cp\u003E\u003Cb\u003Enote\u003C/b\u003E: paciente con APE elevado en 2022, se solicita examen vigente previo a atención con especialidad\u003C/p\u003E\u003C/div\u003E"
        },
        "basedOn": [
          {
            "reference": "ServiceRequest/SolicitudInterconsultaEjemplo"
          }
        ],
        "status": "draft",
        "intent": "order",
        "code": {
          "coding": [
            {
              "system": "http://loinc.org",
              "code": "2857-1",
              "display": "Prostate specific Ag [Mass/volume] in Serum or Plasma"
            }
          ],
          "text": "Antigeno Prostático Específico en Suero o Plasma"
        },
        "subject": {
          "reference": "Patient/EjemploPatientLE"
        },
        "authoredOn": "2024-01-17T16:00:00-03:00",
        "requester": {
          "reference": "Practitioner/PractitionerProfesionalLEEjemplo"
        },
        "reasonCode": [
          {
            "coding": [
              {
                "system": "http://snomed.info/sct",
                "code": "414205003"
              }
            ],
            "text": "antecedente familiar de neoplasia maligna de próstata"
          }
        ],
        "note": [
          {
            "text": "paciente con APE elevado en 2022, se solicita examen vigente previo a atención con especialidad"
          }
        ]
      }
    }
  ]
}
